Folder: composite-uFJC-scission/composite-ufjc-scission-characterization/AFM_chain_tensile_test_curve_fit_data

Note: README.rst
#######################
composite uFJC scission
#######################

|build| |pyversions| |pypi| |license| |zenodo|

The Python package for the composite uFJC model with scission.

************
Installation
************

This package can be installed using ``pip`` via the `Python Package Index <https://pypi.org/project/composite-ufjc-scission/>`_ (PyPI),

::

    pip install composite-ufjc-scission

Alternatively, a branch can be directly installed using

::

    pip install git+https://github.com/jasonmulderrig/composite-uFJC-scission.git@<branch-name>

or after cloning a branch, moving to the main project directory (where the setup and configuration files are located), and executing ``pip install -e .`` for an editable installation or ``pip install .`` for a standard installation.

***********
Information
***********

- `License <https://github.com/jasonmulderrig/composite-uFJC-scission/LICENSE>`__
- `Releases <https://github.com/jasonmulderrig/composite-uFJC-scission/releases>`__
- `Repository <https://github.com/jasonmulderrig/composite-uFJC-scission>`__

********
Citation
********

\Jason Mulderrig, Brandon Talamini, and Nikolaos Bouklas, ``composite-ufjc-scission``: the Python package for the composite uFJC model with scission, `Zenodo (2022) <https://doi.org/10.5281/zenodo.7335565>`_.

\Jason Mulderrig, Brandon Talamini, and Nikolaos Bouklas, A statistical mechanics framework for polymer chain scission, based on the concepts of distorted bond potential and asymptotic matching, Journal of the Mechanics and Physics of Solids, (2023).

..
    Badges ========================================================================

.. |build| image:: https://img.shields.io/github/workflow/status/jasonmulderrig/composite-uFJC-scission/main?label=GitHub&logo=github
    :target: https://github.com/jasonmulderrig/composite-uFJC-scission

.. |pyversions| image:: https://img.shields.io/pypi/pyversions/composite-ufjc-scission.svg?logo=python&logoColor=FBE072&color=4B8BBE&label=Python
    :target: https://pypi.org/project/composite-ufjc-scission/

.. |pypi| image:: https://img.shields.io/pypi/v/composite-ufjc-scission?logo=pypi&logoColor=FBE072&label=PyPI&color=4B8BBE
    :target: https://pypi.org/project/composite-ufjc-scission/

.. |license| image:: https://img.shields.io/github/license/jasonmulderrig/composite-uFJC-scission?label=License
    :target: https://github.com/jasonmulderrig/composite-uFJC-scission/LICENSE

.. |zenodo| image:: https://zenodo.org/badge/DOI/10.5281/zenodo.7335565.svg
   :target: https://doi.org/10.5281/zenodo.7335565

File: al-maawali-et-al-pdms-si-o-chain-a-force-nN-vs-chain-end-to-end-distance-nm.csv
22.3456, -0.227061
23.4934, -0.221229
24.3668, -0.260109
25.4398, -0.258165
26.8621, -0.232893
27.9351, -0.250389
29.1578, -0.250389
30.4803, -0.225117
31.753, -0.225117
33.0505, -0.217341
33.874, -0.260109
35.3712, -0.213453
36.519, -0.221229
37.3674, -0.262053
38.8646, -0.232893
39.8877, -0.230949
40.6862, -0.267885
42.383, -0.232893
43.7804, -0.207621
44.9532, -0.205677
45.2776, -0.283437
47.0243, -0.227061
48.7711, -0.190124
49.3949, -0.234837
50.7673, -0.219285
51.4161, -0.262053
52.6138, -0.252333
54.0362, -0.230949
54.5103, -0.295101
54.8347, -0.36703
56.4317, -0.332037
56.9807, -0.382582
57.3799, -0.450622
57.6794, -0.520607
57.7542, -0.598367
58.6775, -0.715008
58.7024, -0.615863
59.5009, -0.738336
59.7255, -0.819984
59.7505, -0.905521
60.4242, -1.04355
60.8235, -0.919129
60.8484, -1.29627
60.9732, -1.09409
61.0979, -1.18935
61.1978, -1.45568
61.2726, -1.36236
61.4722, -1.52955
61.8465, -1.59759

File: hugel-et-al-pva-c-c-chain-a-force-pN-vs-chain-end-to-end-distance-nm.csv
158.022, 16.1234
184.316, 19.6911
211.652, 28.5943
239.726, 22.8352
267.163, 21.655
293.606, 16.8729
320.921, 11.4344
350.632, 10.4509
385.451, 21.7411
412.47, 20.8594
441.615, 21.1308
469.849, 20.6052
498.531, 15.5968
525.669, 15.8643
550.713, 14.6217
573.561, 16.6691
598.182, 20.8536
624.13, 30.1196
650.577, 29.8376
674.91, 32.654
701.133, 33.2298
726.103, 32.148
753.579, 33.9282
780.904, 34.954
808.686, 36.4847
840.056, 52.1811
864.561, 74.9883
893.135, 95.4807
919.28, 123.154
941.86, 144.894
957.743, 176.534
969.085, 206.813
981.587, 242.365
988.644, 268.924
993.054, 297.179
1006.97, 325.52
1015.23, 385.881
1026.28, 434.82
1035.62, 516.583
1035.82, 471.515
1037.31, 551.342
1048.05, 605.737
1050.5, 646.585
1061.02, 677.448
1062, 722.098
1064.09, 766.274
1071.13, 812.609
1071.31, 860.04
1082.3, 900.125
1083.22, 984.674
1086.91, 942.797
1088.47, 1026.74
1101.3, 1116.73
1101.68, 1070.25
1101.82, 1164.17
1106.79, 1199.65

File: hugel-et-al-pva-c-c-chain-b-force-pN-vs-chain-end-to-end-distance-nm.csv
818.903, -4.48837
844.926, -4.56797
871.365, 2.34722
901.54, 6.08869
928.866, 7.18161
951.644, 13.2321
982.087, 16.3194
1016.01, 14.2201
1045.75, 5.77914
1073.07, 7.95899
1100.68, 8.37561
1126.96, 5.14975
1152.46, 4.46474
1184.4, 11.376
1211.22, 12.6554
1242.93, 3.90253
1273.72, 7.95548
1299.39, 4.13493
1330.26, 7.09629
1355.28, 4.99916
1381.98, 5.08753
1408.26, 1.14943
1437.38, 3.43751
1464.15, 2.51271
1493.55, 4.86944
1519.63, 6.344
1545.92, 5.36164
1573.24, 4.37631
1600.11, 2.28446
1627.88, -0.763675
1653.59, 0.508655
1680.26, 2.6691
1710.61, 0.0519021
1739, -0.57986
1764.51, 1.65387
1790.01, 1.52029
1818.11, -2.93462
1846.69, 3.02129
1874.56, 3.86074
1901.89, 9.14533
1928.41, 4.46051
1956.9, 12.8504
1985.38, 6.28936
2010.35, 7.66793
2034.82, 8.91189
2058.25, 14.6397
2076.4, 17.7503
2096.97, 19.4491
2120.22, 11.1668
2145.28, 14.255
2168.91, 14.0714
2194.71, 8.10967
2216.73, 16.9259
2244.51, 14.7309
2268.2, 18.4181
2297.34, 15.5712
2326.29, 16.0237
2352.56, 21.6458
2379.31, 18.1461
2406.63, 15.6523
2433.96, 20.1978
2462.27, 28.1918
2490.89, 24.7653
2513.66, 20.2569
2542.29, 26.9583
2570.59, 25.83
2597.91, 25.8503
2626.87, 28.7449
2650.94, 33.0725
2679.9, 34.9615
2706.07, 30.5814
2734.21, 31.8413
2761.87, 37.0335
2791.48, 42.712
2816.53, 43.1077
2843.86, 51.6756
2869.55, 47.4568
2898.51, 49.2022
2927.47, 57.8431
2951.54, 59.5849
2980.49, 60.8274
3006.68, 58.71
3035.15, 65.3932
3062.47, 64.0308
3089.8, 70.4618
3117.14, 77.0185
3143.49, 81.7069
3171.8, 86.6123
3198.38, 97.3585
3226.46, 93.9435
3254.36, 99.6207
3278.85, 106.469
3310.73, 110.221
3334.17, 126.239
3363.88, 122.286
3390.46, 135.546
3418.54, 134.729
3445.13, 150.671
3470.18, 149.935
3499.8, 167.304
3528.27, 169.588
3554.47, 182.931
3581.82, 198.036
3609.15, 205.598
3638.76, 211.319
3663.84, 231.282
3691.18, 244.878
3717.38, 254.953
3736.78, 280.108
3768.69, 303.26
3796.03, 316.856
3823.39, 337.994
3851.48, 343.211
3878.66, 378.385
3901.66, 405.931
3927.3, 438.273
3953.37, 469.322
3976.18, 498.904
3983.06, 529.68
4007.49, 549.092
4024.13, 586.527
4045.81, 621.438
4062.95, 658.457
4085.79, 704.732
4097.24, 752.507
4113.23, 788.217
4134.71, 838.715
4149.8, 876.738
4162.61, 915.242
4177.24, 954.441
4186.87, 999.248
4205.84, 1050.25
4216.14, 1084.95
4227.14, 1132.92
4248.18, 1193.58
4257.71, 1254.78
4271.13, 1311.75
4284.87, 1364.81
4291.76, 1403.78
4300.91, 1435.97
4310.1, 1491.08
4322.7, 1540.19
4334.75, 1603.93
4344.52, 1663.77
4353.67, 1694.45
4362.85, 1740.08
4369.71, 1762.64
4374.32, 1797.7
4374.38, 1839.27
4385.07, 1881.51
4399.56, 1927.53
4401.89, 1965.99
4411.96, 2000.39
4418.08, 2031.98
4420.25, 2062.92
4433.95, 2089.71

File: ortiz-and-hadziioannou-pmaa-c-c-chain-a-force-nN-vs-chain-end-to-end-distance-nm.csv
8.07547, -0.0177236
8.99279, -0.0235695
9.86467, -0.0243751
10.782, -0.0306087
11.8382, -0.022506
13.5818, -0.0268304
14.085, -0.0435146
14.8184, -0.0536177
15.69, -0.0579117
16.6999, -0.0548461
16.9259, -0.0924509
17.6595, -0.0994532
17.7936, -0.138218
18.1119, -0.171174
18.7083, -0.173521
18.976, -0.256864
19.0257, -0.215392
19.2944, -0.287882
19.7047, -0.316966
19.8266, -0.489451
19.8308, -0.443715
19.8349, -0.399142
19.8388, -0.356506

File: ortiz-and-hadziioannou-pmaa-c-c-chain-b-force-nN-vs-chain-end-to-end-distance-nm.csv
18.3086, -0.0273829
21.4723, -0.0592762
22.2057, -0.0686041
22.5251, -0.0891579
23.2595, -0.0876331
23.9442, -0.127967
24.1318, -0.0841751
24.4443, -0.179535
24.4475, -0.144264
25.1781, -0.184599
25.4976, -0.20399
25.5405, -0.236162
25.9982, -0.249357

File: ortiz-and-hadziioannou-pmaa-c-c-chain-c-force-nN-vs-chain-end-to-end-distance-nm.csv
19.8687, -0.0309257
20.557, -0.0313373
21.2908, -0.0367892
23.9064, -0.0399812
24.4556, -0.0566671
25.1425, -0.0729701
25.876, -0.0815228
26.1483, -0.11409
27.0656, -0.120712
27.4305, -0.145143
27.7943, -0.181202
28.1134, -0.204857
29.1693, -0.20063
29.2105, -0.251794
29.6673, -0.274291
29.7093, -0.317315
29.798, -0.350652
30.162, -0.385161

File: ortiz-and-hadziioannou-pmaa-c-c-chain-d-force-nN-vs-chain-end-to-end-distance-nm.csv
30.6056, -0.0522304
31.8464, -0.0336691
32.4891, -0.0309783
33.2686, -0.0387574
33.588, -0.058536
34.7375, -0.0349327
34.8255, -0.0764086
35.8824, -0.0617168
36.709, -0.0551565
37.12, -0.0780391
37.6234, -0.0927853
38.1276, -0.100167
38.6771, -0.113365
39.3191, -0.118038
40.053, -0.122715
40.2342, -0.147915
41.1031, -0.181666
41.1528, -0.140583
41.6529, -0.191763
42.3836, -0.230936
42.5708, -0.190632
43.1177, -0.232124
43.2525, -0.2643
43.6146, -0.318963
43.6571, -0.355786
43.8023, -0.273621
44.1606, -0.370533

File: ortiz-and-hadziioannou-pmaa-c-c-chain-e-force-nN-vs-chain-end-to-end-distance-nm.csv
27.8542, -0.0288786
29.9648, -0.0332158
31.894, -0.0150661
33.5925, -0.00931137
34.3266, -0.0120502
35.3797, -0.0376683
36.7561, -0.0419799
37.1713, -0.0183509
38.7774, -0.0199574
38.8238, -0.0145326
40.2918, -0.0203978
41.3021, -0.0138439
41.6215, -0.0332349
42.7213, -0.0511027
43.7778, -0.041062
44.1429, -0.0631678
45.0157, -0.0542835
45.9335, -0.0543155
46.8982, -0.043884
47.6326, -0.0423593
48.1362, -0.0559427
48.6859, -0.0675898
49.1893, -0.0823361
49.7396, -0.0870064
50.6573, -0.0882012
51.1615, -0.0955832
51.5268, -0.114976
52.3988, -0.115006
53.4527, -0.132872
53.4556, -0.101477
53.6335, -0.162724
54.3676, -0.165462
54.6869, -0.186016
55.2365, -0.198051
55.6012, -0.224808
56.2441, -0.220179
56.4247, -0.252743
57.2047, -0.254321
57.4315, -0.284174
57.7508, -0.304728

File: ortiz-and-hadziioannou-pmaa-c-c-chain-f-force-nN-vs-chain-end-to-end-distance-nm.csv
28.4979, -0.0149476
30.5172, -0.0154056
35.611, -0.0186841
36.7135, -0.00670706
37.9496, -0.0389207
39.1894, -0.0315996
42.1272, -0.0243378
43.9616, -0.0383552
44.6492, -0.0469064
46.2578, -0.0217687
46.9444, -0.0411725
48.1855, -0.0187352
48.5035, -0.0544052
49.8826, -0.0292595
51.3949, -0.0529556
52.5892, -0.0409818
53.0919, -0.06348
54.1935, -0.0615804
55.0648, -0.0693627
56.398, -0.0438278
57.4031, -0.0927001
57.4998, -0.0396027
58.4129, -0.0915725
59.3306, -0.0931549
60.2016, -0.103263
60.3362, -0.137376
60.8852, -0.155225
62.0788, -0.151003
62.4437, -0.175822
63.2689, -0.185153
63.6798, -0.208811
64.4126, -0.224728
64.777, -0.254585
65.5105, -0.263138

File: ortiz-and-hadziioannou-pmaa-c-c-chain-g-force-nN-vs-chain-end-to-end-distance-nm.csv
32.8122, -0.0116097
33.9146, -2.02781e-05
34.6024, -0.00702101
37.7199, -0.0416259
40.3368, -0.0308645
40.8403, -0.0444479
43.0442, -0.0332845
43.184, -0.0104211
44.0563, -0.0069632
44.3756, -0.0279046
45.1094, -0.0329689
46.7158, -0.0314746
47.5882, -0.0268539
48.5986, -0.018362
48.964, -0.037367
49.6982, -0.0385554
50.8918, -0.0335582
51.1235, -0.00914772
51.5342, -0.0343558
52.3153, -0.0250808
52.6805, -0.0460237
53.7371, -0.0340451
54.6092, -0.0325251
54.7905, -0.0577252
55.8932, -0.0434226
56.5354, -0.047321
57.0848, -0.0609061
58.418, -0.0361464
59.382, -0.0330792
59.7473, -0.0536346
60.4358, -0.0517206
61.4924, -0.0401296
61.6735, -0.0672677
62.177, -0.0820139
62.9111, -0.0832023
63.9679, -0.0700609
64.2871, -0.0925526
65.2975, -0.0836732
66.1237, -0.0821516
66.8114, -0.0895399
67.6807, -0.119028
67.8219, -0.0806605
68.8758, -0.0981391
69.655, -0.108631
69.9746, -0.126472
70.4782, -0.140055
71.1632, -0.176901
71.3505, -0.135822
71.8968, -0.183903
72.216, -0.206395
72.5819, -0.219974
73.6806, -0.249469
73.6839, -0.213811
74.3653, -0.290579
74.4144, -0.255309
74.8694, -0.297961
75.0045, -0.325872
75.4155, -0.348367
75.7804, -0.372023
76.146, -0.389478

File: ortiz-and-hadziioannou-pmaa-c-c-chain-h-force-nN-vs-chain-end-to-end-distance-nm.csv
53.1889, -0.00728178
53.8771, -0.00846858
54.6114, -0.0084942
54.9311, -0.025172
55.5272, -0.0306192
56.3536, -0.0279348
57.4112, -0.00549109
57.8221, -0.027986
58.2343, -0.0376903
59.3837, -0.014087
59.5188, -0.0427739
60.2535, -0.0381484
61.264, -0.0284937
61.9982, -0.0300697
62.5483, -0.036678
63.145, -0.0347609
63.9249, -0.0378889
64.9822, -0.0193211
65.348, -0.0336749
66.4048, -0.0193707
66.9087, -0.0298534
67.6434, -0.0248403
68.3775, -0.0268039
68.5133, -0.0477388
69.8004, -0.0245279
70.3043, -0.0342354
71.1313, -0.0245743
71.3128, -0.0470613
72.4151, -0.0370222
73.2879, -0.028138
73.8377, -0.0378471
74.3878, -0.044843
74.9376, -0.0549397
75.0272, -0.0789738
76.2689, -0.050335
76.819, -0.0565557
77.6458, -0.0488326
78.0573, -0.0659012
78.3769, -0.0841294
79.2493, -0.0791211
79.9838, -0.0760459
81.0408, -0.0609665
81.2219, -0.0873294
82.2329, -0.0730236
82.9677, -0.0668477
83.3789, -0.0874047
83.4688, -0.107175
84.5256, -0.0936462
85.444, -0.0878643
85.6257, -0.108026
86.2679, -0.111536
86.6338, -0.12434
87.4596, -0.127857
87.5037, -0.146851
88.4222, -0.139906
88.5571, -0.170919
89.4757, -0.162036
90.3484, -0.154702
90.5268, -0.210522
90.8525, -0.162084
91.3509, -0.231481
91.3995, -0.202026
92.2239, -0.221047
92.4509, -0.247799
93.1394, -0.246272
93.4586, -0.268376
93.9567, -0.342037
94.0086, -0.276148
94.1445, -0.29592
94.5067, -0.349808
94.6856, -0.40059
94.827, -0.359897
95.1435, -0.411071
95.5089, -0.430076

File: sakai-et-al-ps-c-c-chain-a-force-pN-vs-chain-end-to-end-distance-nm.csv
2.66846, -10.0675
2.99191, -10.0675
3.06379, 2.19865
3.13567, -7.86885
3.20755, -7.5217
3.56694, -5.78592
3.63881, -5.43877
3.78257, -2.89296
4.03414, -5.55448
4.07008, 0.925747
4.14196, 3.81871
4.42947, 5.32305
4.53729, -1.38862
5.00449, -1.15718
5.25606, 4.51302
5.25606, 3.1244
5.292, 8.44744
5.54358, 23.3751
5.68733, 15.1591
5.79515, 7.40598
5.86703, 0.115718
6.1186, 13.5391
6.22642, 19.7878
6.40611, 10.6461
6.51393, 26.4995
6.83738, 9.60463
7.01707, 10.4147
7.77179, 2.08293
7.91554, 3.81871
7.91554, 6.01736
8.23899, 5.20733
8.59838, -0.462874
8.74214, 5.90164
8.81402, -0.810029
9.17341, 11.109
9.17341, 6.13308
9.24528, -1.62006
9.64061, 9.60463
10.3594, 9.14176
10.3953, -3.58727
10.3953, 0.578592
10.3953, 6.13308
10.8985, 1.85149
10.8985, 8.7946
11.2579, 10.1832
11.4016, -6.71167
11.5094, 10.1832
11.5454, 13.5391
11.5813, -2.31437
11.5813, 16.6635
12.372, 3.35583
12.5876, 6.59595
12.7314, 14.3491
12.8032, -2.77724
13.0189, 2.43009
13.3064, 6.01736
13.3064, 5.09161
13.3423, 7.86885
13.6298, 6.01736
13.6298, 4.51302
14.097, -0.694311
14.133, 4.3973
14.6002, 7.63742
14.6002, -2.77724
14.6721, -1.2729
14.7799, 10.7618
14.8877, 14.9277
14.9236, 4.16586
15.3549, 7.5217
15.6065, 14.6962
15.894, -1.50434
15.9299, 1.62006
16.3612, 7.63742
16.5409, -4.16586
16.5409, 15.0434
16.5768, 2.54581
16.9362, 2.19865
16.9362, 20.0193
17.3315, 17.1263
17.3675, 4.3973
17.4034, 2.54581
17.5831, 15.5063
18.0503, 13.5391
18.3019, 0.810029
18.4097, 7.98457
18.5175, 12.2662
18.7332, 13.1919
18.805, 10.0675
18.9847, 14.1176
19.5597, 10.6461
19.7394, -0.231437
20.027, 2.54581
20.3145, 5.6702
20.3863, 4.3973
20.8535, 6.59595
20.8895, 3.93443
21.0332, 9.72035
21.3926, 7.05882
21.6801, -8.91032
21.7161, 4.97589
21.7161, 9.60463
21.8239, 12.2662
22.5427, -0.694311
22.6864, 7.29026
22.8302, -4.05014
23.0818, 3.70299
23.2255, 7.29026
23.6208, 5.90164
24.1599, -3.1244
24.2677, 3.00868
24.3037, -1.15718
24.3396, 1.62006
24.4834, 8.67888
24.6271, 1.38862
24.6271, 3.00868
24.8068, 4.62874
25.1662, 1.15718
25.1662, 11.919
25.4537, 7.40598
25.6334, -4.62874
25.7412, 6.94311
26.1366, 6.71167
26.2084, -0.115718
26.6038, 9.83607
26.6397, 0.231437
26.7475, 1.50434
26.9632, 15.8534
27.071, 2.31437
27.071, 6.48023
27.3585, 17.1263
27.4304, 8.56316
27.6101, 18.5149
27.8976, 8.44744
27.8976, 16.6635
28.1851, 13.5391
28.6523, 8.33173
28.9398, 19.5564
28.9398, 4.62874
29.0476, 13.4233
29.5867, 20.4822
29.6226, 9.02604
29.6586, 10.7618
30.1617, 13.5391
30.2336, 7.40598
30.2695, 15.5063
30.4133, 16.0849
30.4133, 21.9865
31.168, 8.10029
31.2758, 20.4822
31.3836, 24.1851
31.3836, 12.729
31.4555, 6.59595
31.5274, 23.838
32.0305, 20.4822
32.1024, 12.8447
32.3181, 33.5583
32.3899, 26.3838
32.4618, 33.3269
32.4978, 13.3076
33.1447, 32.864
33.2165, 23.9537
33.2165, 20.8293
33.7197, 22.4494
34.4025, 10.6461
34.4025, 21.2922
34.6181, 21.8708
34.69, 10.1832
34.7619, 28.4667
34.7978, 22.3337
34.8697, 31.8226
35.1213, 17.242
35.301, 28.1196
35.4447, 30.4339
35.6604, 32.9797
35.7682, 20.3664
36.0198, 26.3838
36.2713, 33.7898
36.6307, 18.8621
36.6667, 29.9711
36.8464, 29.0453
36.8464, 33.7898
37.1698, 28.4667
37.2776, 31.8226
37.673, 25.8052
37.8886, 35.1784
37.9964, 21.6393
38.1042, 24.8795
38.1042, 39.3443
38.212, 31.7068
38.4996, 41.08
38.5355, 35.2941
39.0746, 36.2199
39.1105, 32.7483
39.1105, 40.27
39.434, 36.567
39.5058, 39.2285
39.6855, 45.3616
39.6855, 48.7175
39.7934, 35.757
40.1168, 45.4773
40.2606, 54.3877
40.2965, 43.8573
40.3324, 49.6432
40.5481, 51.2633
40.7278, 61.6779
40.8715, 52.8833
41.0153, 63.7608
41.2309, 55.082
41.4825, 67.9267
41.5544, 62.9508
41.6262, 56.0077
42.0216, 74.0598
42.0575, 59.7107
42.1294, 63.9923
42.2013, 77.9942
42.2372, 64.3394
42.3091, 71.9769
42.5606, 79.4986
42.5606, 75.9113
42.8841, 83.7801
42.8841, 77.9942
43.0638, 86.4417
43.1716, 108.775
43.2435, 98.8235
43.2435, 88.2932
43.3154, 89.6818
43.4951, 97.3192
43.6029, 104.841
43.7107, 108.775
43.7466, 113.057
43.8904, 112.478
43.9982, 120.231
44.106, 111.9
44.1779, 121.62
44.2138, 137.473
44.2857, 129.952
44.2857, 114.214
44.3217, 123.819

File: wang-et-al-pdma-c-c-chain-a-force-pN-vs-chain-end-to-end-distance-nm.csv
15.6025, 4.34446
39.6446, 2.64508
65.2702, 1.77486
93.4937, 0.48175
116.582, 3.60774
145.294, 6.06016
167.153, 5.1122
193.988, 2.76218
220.563, 0.305035
246.758, 4.08603
271.941, 4.54785
300.677, 2.43847
324.633, 3.32173
349.951, 4.27789
372.492, 1.32943
395.611, 2.44324
413.435, 5.74531
429.707, 23.6847
445.899, 54.6406
460.478, 106.522
470.525, 173.392
475.938, 260.375
481.319, 360.647
484.631, 448.443
489.949, 541.488
491.861, 642.266
495.059, 744.662
499.48, 851.491
504.159, 950.571

File: wang-et-al-pdma-c-c-chain-b-force-pN-vs-chain-end-to-end-distance-nm.csv
13.086, 2.50288
31.5118, 3.63999
56.8224, 5.34757
82.987, 7.66307
105.941, 7.0025
136.064, 6.67789
158.885, 7.37223
186.022, 6.18569
211.933, 3.34313
238.141, 5.89985
263.386, 4.2737
291.448, 3.87328
314.269, 4.90201
340.307, 0.231913
368.187, 8.12
392.034, -3.49278
419.9, 4.26028
444.816, 2.38704
467.307, 9.78647
485.144, 49.6914
496.137, 104.196
503.169, 174.924
510.099, 254.377
516.105, 336.06
520.315, 434.716
522.235, 519.678
526.385, 625.612
529.99, 704.267
533.575, 810.762
537.076, 913.766
539.846, 1006.59
542.952, 1127.92
543.878, 1246.91
548.539, 1348.22
551.452, 1432.39

File: wang-et-al-pdma-c-c-chain-c-force-pN-vs-chain-end-to-end-distance-nm.csv
17.9592, 7.16917
42.1225, 16.0563
67.352, 21.1351
95.5208, 20.3106
119.921, 7.96961
147.31, 13.0085
169.523, 12.8608
195.979, 1.78744
222.725, 5.78968
248.38, 8.54693
273.791, 4.52575
302.691, 6.31833
327.103, 7.9217
352.996, 2.67002
377.065, 4.92767
404.792, 2.89548
432.769, 4.6134
456.592, 7.56952
482.488, 5.84018
506.188, 5.2235
536.491, 6.18755
558.555, 10.2935
586.081, 8.01947
612.476, 9.9436
637.878, 10.2103
663.774, 8.21509
689.671, 7.34376
715.565, 2.55411
741.468, 8.41071
758.156, 19.5479
775.063, 29.3172
794.99, 31.8887
815.049, 42.7808
831.561, 50.0329
846.817, 69.0634
858.91, 103.47
869.715, 150.175
877.785, 224.212
886.516, 308.824
894.141, 394.267
901.117, 470.954
907.078, 555.403
912.895, 632.244
919.157, 712.069
923.844, 786.658
929.463, 864.319
933.21, 949.572

File: yamamoto-et-al-pmma-c-c-chain-a-force-nN-vs-chain-end-to-end-distance-nm.csv
57.8672, -0.0394448
58.6703, -0.0437051
59.4734, -0.0479654
60.0723, -0.0531749
60.6744, -0.0564886
61.2733, -0.0616981
62.074, -0.0673803
62.8746, -0.0730624
63.4791, -0.0749543
64.0828, -0.0773202
64.8899, -0.0792108
65.4888, -0.0844203
65.6842, -0.0886845
66.0789, -0.0948431
66.4761, -0.0995799
66.8724, -0.104791
67.6739, -0.109999
68.6779, -0.115206
69.477, -0.121836
69.8677, -0.130364
70.0567, -0.13842
71.0551, -0.146944
71.2417, -0.156422
71.6164, -0.174429
72.3931, -0.194329
72.7622, -0.215654
73.3331, -0.237451
73.6967, -0.262094
74.2628, -0.286735
74.6247, -0.312325
75.174, -0.346918
75.7161, -0.385777
75.8523, -0.425113
76.5769, -0.475819
76.8917, -0.529372
77.4074, -0.583871

File: yamamoto-et-al-pmma-c-c-chain-b-force-nN-vs-chain-end-to-end-distance-nm.csv
99.3473, -0.0666708
100.753, -0.0737709
101.556, -0.0780312
102.156, -0.0827668
102.958, -0.0875011
103.559, -0.0917627
104.362, -0.096023
104.959, -0.10218
105.559, -0.106916
106.157, -0.112599
106.549, -0.12018
107.142, -0.129181
107.532, -0.138183
108.123, -0.147658
108.919, -0.156184
109.513, -0.164237
110.107, -0.172764
110.702, -0.180343
111.294, -0.189344
111.68, -0.200716
112.065, -0.212562
112.651, -0.225354
113.439, -0.23862
114.027, -0.250464
114.41, -0.263258
114.796, -0.27463
115.182, -0.286476
115.568, -0.297374
115.953, -0.309694
116.303, -0.342393
117.058, -0.37509
117.407, -0.408263
117.761, -0.438592
118.32, -0.467025
118.474, -0.495934
119.033, -0.52484
119.399, -0.548061

File: yamamoto-et-al-pmma-c-c-chain-c-force-nN-vs-chain-end-to-end-distance-nm.csv
110.313, -0.0504878
113.145, -0.0528395
116.168, -0.0622991
118.806, -0.0594388
121.839, -0.0627372
124.884, -0.0584525
127.473, -0.0849765
130.325, -0.0754798
133.777, -0.0707186
136.568, -0.0972413
139.186, -0.106229
141.999, -0.119956
144.809, -0.135104
147.772, -0.179635
150.341, -0.218007
153.109, -0.258274
155.449, -0.312288

File: yamamoto-et-al-pmma-c-c-chain-d-force-nN-vs-chain-end-to-end-distance-nm.csv
150.997, -0.0696619
154.037, -0.0682209
155.451, -0.0710556
156.661, -0.0738916
157.67, -0.0762548
158.679, -0.0786181
159.486, -0.0805088
160.697, -0.0833447
161.906, -0.0866546
162.508, -0.0904423
163.509, -0.097071
164.107, -0.102754
164.911, -0.107015
165.309, -0.110804
165.708, -0.114593
167.32, -0.119796
168.327, -0.123107
169.131, -0.126893
170.136, -0.131152
170.737, -0.135414
171.539, -0.140148
172.139, -0.144884
172.526, -0.155308
172.708, -0.167629
173.295, -0.179948
173.882, -0.192266
174.474, -0.201741
175.678, -0.208369
176.276, -0.214052
176.874, -0.219735
177.27, -0.22542
177.463, -0.230632
178.059, -0.237737
178.249, -0.245319
179.046, -0.252897
180.046, -0.260948
181.047, -0.26805
181.433, -0.278948
181.999, -0.303589
182.02, -0.291267
182.788, -0.31638
183.559, -0.339598
183.577, -0.328698
184.145, -0.352391
184.935, -0.364234
185.318, -0.377502
185.695, -0.394087
186.073, -0.410199
186.654, -0.426309
187.245, -0.435784

File: yamamoto-et-al-pmma-c-c-chain-e-force-nN-vs-chain-end-to-end-distance-nm.csv
164.862, -0.0160198
167.272, -0.0283269
169.517, -0.0183601
171.935, -0.0254538
174.778, -0.0216444
177.189, -0.0334775
179.627, -0.0291967
181.838, -0.0391353
184.69, -0.0296386
186.898, -0.041473
189.74, -0.0381375
192.571, -0.0409632
194.579, -0.0513771
196.814, -0.0470975
199.233, -0.0546652
201.875, -0.0489613
204.273, -0.0688514
206.904, -0.0697826
208.912, -0.0806704
211.942, -0.0853906
214.775, -0.0872684
216.575, -0.101001
219.218, -0.0952972
221.385, -0.131776
223.809, -0.135553
226.422, -0.147384
228.615, -0.168698
231.206, -0.193326
233.601, -0.214638
235.791, -0.237373
238.338, -0.288541
240.476, -0.342082
242.401, -0.401786

File: zhang-et-al-pnipam-c-c-chain-a-force-pN-vs-chain-end-to-end-distance-nm.csv
102.632, -85.8771
106.596, -80.972
110.561, -86.234
114.525, -74.9744
118.49, -71.9757
122.455, -79.7794
126.42, -88.2185
130.384, -75.0527
134.349, -82.8564
138.314, -83.0348
142.278, -70.5044
146.243, -75.7664
150.205, -46.7145
154.17, -46.8929
158.135, -55.332
162.099, -38.989
166.065, -60.7724
170.028, -35.5332
174.586, -18.4543
178.619, -39.8595
183.243, -23.4191
187.86, -23.6063
191.675, -23.9266
196.124, -23.6158
200.423, -22.0936
203.72, -34.7034
207.016, -24.1695
210.651, -38.3643
215.281, -43.7454
220.248, -43.969
224.213, -48.0047
228.327, -36.9199
232.142, -36.745
236.108, -48.5399
240.073, -56.433
244.367, -42.6268
247.007, -8.49626
249.386, -49.6822
251.813, -14.2739
255.931, -42.626
259.896, -53.4678
263.861, -49.7889
267.826, -57.6819
271.789, -35.6697
275.754, -38.7523
279.903, -46.9077
283.683, -27.69
286.98, -46.9274
291.349, -49.075
295.579, -58.9755
299.709, -55.7806
303.838, -47.7753
307.472, -42.1306
311.173, -48.8679
315.402, -44.483
319.367, -56.2333
323.331, -44.8399
327.296, -52.0974
331.261, -49.1433
335.226, -50.5926
339.19, -49.5001
343.155, -49.6786
347.12, -49.857
351.085, -49.3999
355.049, -43.1793
359.014, -50.3922
362.979, -50.5706
366.943, -49.4782
370.574, -48.3707
374.873, -51.1059
378.837, -44.8853
383.137, -49.5715
387.101, -49.7499
390.731, -46.1006
394.696, -42.4664
398.66, -36.9258
402.625, -37.1042
406.59, -37.2827
410.291, -48.1246
414.519, -37.6395
418.248, -37.2626
422.448, -27.8293
426.149, -40.4505
430.376, -12.9355
434.293, -7.4836
438.303, 8.31268
442.267, 25.6346
446.228, 64.2817
449.825, 105.696
452.351, 155.526
454.476, 205.842
455.463, 259.174
457.111, 303.104
457.987, 363.273
458.753, 419.793
459.962, 458.5
460.218, 509.74
461.709, 547.561
462.227, 589.299
462.28, 627.587
462.675, 655.558
463.671, 688.585
464.344, 728.092
465.006, 767.314
465.479, 806.126
465.652, 853.899
466.573, 900.238
466.946, 943.483
467.948, 1000.58
468.993, 1052.57
469.269, 1102.92
470.255, 1168.46